{
  "resourceType": "Bundle",
  "id": "SRC-KBV-TRP-Bundle",
  "meta": {
    "profile": [
      "https://fhir.kbv.de/StructureDefinition/KBV_PR_ERP_Bundle|1.4"
    ]
  },
  "identifier": {
    "system": "https://gematik.de/fhir/erp/NamingSystem/GEM_ERP_NS_PrescriptionId",
    "value": "160.100.000.000.001.39"
  },
  "entry": [
    {
      "resource": {
        "resourceType": "Composition",
        "id": "6aba4ca1-6bc9-47db-a58d-946b5ded26b7",
        "meta": {
          "profile": [
            "https://fhir.kbv.de/StructureDefinition/KBV_PR_ERP_Composition|1.4"
          ]
        },
        "section": [
          {
            "entry": [
              {
                "reference": "MedicationRequest/KBV-TRP-MedicationRequest"
              }
            ],
            "code": {
              "coding": [
                {
                  "code": "Prescription",
                  "system": "https://fhir.kbv.de/CodeSystem/KBV_CS_ERP_Section_Type"
                }
              ]
            }
          },
          {
            "entry": [
              {
                "reference": "Coverage/e51239e1-ba74-48e0-97fb-9754d2b05c60"
              }
            ],
            "code": {
              "coding": [
                {
                  "code": "Coverage",
                  "system": "https://fhir.kbv.de/CodeSystem/KBV_CS_ERP_Section_Type"
                }
              ]
            }
          }
        ],
        "author": [
          {
            "reference": "Practitioner/0c4e1a54-8a42-4d3d-a12c-0bbf2db48570",
            "type": "Practitioner"
          },
          {
            "identifier": {
              "system": "https://fhir.kbv.de/NamingSystem/KBV_NS_FOR_Pruefnummer",
              "value": "Y/400/2107/36/999"
            },
            "type": "Device"
          }
        ],
        "extension": [
          {
            "valueCoding": {
              "code": "00",
              "system": "https://fhir.kbv.de/CodeSystem/KBV_CS_SFHIR_KBV_STATUSKENNZEICHEN"
            },
            "url": "https://fhir.kbv.de/StructureDefinition/KBV_EX_FOR_Legal_basis"
          }
        ],
        "date": "2025-05-20T08:00:00Z",
        "subject": {
          "reference": "Patient/30635f5d-c233-4500-94e8-6414940236aa"
        },
        "title": "elektronische Arzneimittelverordnung",
        "custodian": {
          "reference": "Organization/4ad4ae52-bd62-4cbd-bae9-7f7d6ece3fd2"
        },
        "type": {
          "coding": [
            {
              "code": "e16A",
              "system": "https://fhir.kbv.de/CodeSystem/KBV_CS_SFHIR_KBV_FORMULAR_ART"
            }
          ]
        },
        "status": "final"
      },
      "fullUrl": "http://pvs.praxis.local/fhir/Composition/6aba4ca1-6bc9-47db-a58d-946b5ded26b7"
    },
    {
      "resource": {
        "resourceType": "MedicationRequest",
        "id": "KBV-TRP-MedicationRequest",
        "meta": {
          "profile": [
            "https://fhir.kbv.de/StructureDefinition/KBV_PR_ERP_Prescription|1.4"
          ]
        },
        "dispenseRequest": {
          "expectedSupplyDuration": {
            "value": 3,
            "unit": "Woche(n)"
          },
          "quantity": {
            "value": 1,
            "unit": "Packung"
          }
        },
        "substitution": {
          "allowedBoolean": true
        },
        "dosageInstruction": [
          {
            "timing": {
              "repeat": {
                "when": [
                  "EVE"
                ],
                "period": 1,
                "periodUnit": "d",
                "frequency": 1
              }
            },
            "doseAndRate": [
              {
                "doseQuantity": {
                  "value": 1,
                  "code": "1",
                  "system": "https://fhir.kbv.de/CodeSystem/KBV_CS_SFHIR_BMP_DOSIEREINHEIT",
                  "unit": "Stück"
                }
              }
            ],
            "extension": [
              {
                "valueCoding": {
                  "code": "DAILY_FOUR_SCHEME",
                  "system": "https://fhir.kbv.de/CodeSystem/KBV_CS_ERP_Dosage_Category"
                },
                "url": "https://fhir.kbv.de/StructureDefinition/KBV_EX_ERP_DosageCategory"
              }
            ]
          }
        ],
        "insurance": [
          {
            "reference": "Coverage/e51239e1-ba74-48e0-97fb-9754d2b05c60"
          }
        ],
        "extension": [
          {
            "valueCoding": {
              "code": "1",
              "system": "https://fhir.kbv.de/CodeSystem/KBV_CS_FOR_StatusCoPayment"
            },
            "url": "https://fhir.kbv.de/StructureDefinition/KBV_EX_FOR_StatusCoPayment"
          },
          {
            "valueBoolean": false,
            "url": "https://fhir.kbv.de/StructureDefinition/KBV_EX_ERP_EmergencyServicesFee"
          },
          {
            "valueBoolean": true,
            "url": "https://fhir.kbv.de/StructureDefinition/KBV_EX_FOR_SER"
          },
          {
            "extension": [
              {
                "valueBoolean": false,
                "url": "Kennzeichen"
              }
            ],
            "url": "https://fhir.kbv.de/StructureDefinition/KBV_EX_ERP_Multiple_Prescription"
          },
          {
            "extension": [
              {
                "valueBoolean": true,
                "url": "Off-Label"
              },
              {
                "valueBoolean": false,
                "url": "GebaerfaehigeFrau"
              },
              {
                "valueBoolean": true,
                "url": "EinhaltungSicherheitsmassnahmen"
              },
              {
                "valueBoolean": true,
                "url": "AushaendigungInformationsmaterialien"
              },
              {
                "valueBoolean": true,
                "url": "ErklaerungSachkenntnis"
              }
            ],
            "url": "https://fhir.kbv.de/StructureDefinition/KBV_EX_ERP_Teratogenic"
          },
          {
            "valueBoolean": true,
            "url": "https://fhir.kbv.de/StructureDefinition/KBV_EX_ERP_DosageFlag"
          }
        ],
        "intent": "order",
        "subject": {
          "reference": "Patient/30635f5d-c233-4500-94e8-6414940236aa"
        },
        "authoredOn": "2025-05-20",
        "requester": {
          "reference": "Practitioner/0c4e1a54-8a42-4d3d-a12c-0bbf2db48570"
        },
        "medicationReference": {
          "reference": "Medication/KBV-TRP-Medication"
        },
        "status": "active"
      },
      "fullUrl": "http://pvs.praxis.local/fhir/MedicationRequest/KBV-TRP-MedicationRequest"
    },
    {
      "resource": {
        "resourceType": "Medication",
        "id": "KBV-TRP-Medication",
        "meta": {
          "profile": [
            "https://fhir.kbv.de/StructureDefinition/KBV_PR_ERP_Medication_PZN|1.4"
          ]
        },
        "ingredient": [
          {
            "itemCodeableConcept": {
              "text": "Pomalidomid"
            },
            "strength": {
              "denominator": {
                "value": 1,
                "unit": "Stück"
              },
              "numerator": {
                "value": 1,
                "unit": "mg"
              }
            }
          }
        ],
        "amount": {
          "denominator": {
            "value": 1
          },
          "numerator": {
            "extension": [
              {
                "valueString": "21",
                "url": "https://fhir.kbv.de/StructureDefinition/KBV_EX_ERP_Medication_PackagingSize"
              }
            ],
            "unit": "Stück"
          }
        },
        "extension": [
          {
            "valueCodeableConcept": {
              "coding": [
                {
                  "version": "http://snomed.info/sct/11000274103/version/20240515",
                  "code": "763158003",
                  "system": "http://snomed.info/sct",
                  "display": "Medicinal product (product)"
                }
              ]
            },
            "url": "https://fhir.kbv.de/StructureDefinition/KBV_EX_Base_Medication_Type"
          },
          {
            "valueCoding": {
              "code": "02",
              "system": "https://fhir.kbv.de/CodeSystem/KBV_CS_ERP_Medication_Category"
            },
            "url": "https://fhir.kbv.de/StructureDefinition/KBV_EX_ERP_Medication_Category"
          },
          {
            "valueBoolean": false,
            "url": "https://fhir.kbv.de/StructureDefinition/KBV_EX_ERP_Medication_Vaccine"
          },
          {
            "valueCode": "N1",
            "url": "http://fhir.de/StructureDefinition/normgroesse"
          }
        ],
        "code": {
          "text": "Pomalidomid Accord 1 mg 21 x 1 Hartkapseln",
          "coding": [
            {
              "code": "19201712",
              "system": "http://fhir.de/CodeSystem/ifa/pzn"
            }
          ]
        },
        "form": {
          "coding": [
            {
              "code": "HKP",
              "system": "https://fhir.kbv.de/CodeSystem/KBV_CS_SFHIR_KBV_DARREICHUNGSFORM"
            }
          ]
        }
      },
      "fullUrl": "http://pvs.praxis.local/fhir/Medication/KBV-TRP-Medication"
    },
    {
      "resource": {
        "resourceType": "Patient",
        "id": "30635f5d-c233-4500-94e8-6414940236aa",
        "meta": {
          "profile": [
            "https://fhir.kbv.de/StructureDefinition/KBV_PR_FOR_Patient|1.2"
          ]
        },
        "identifier": [
          {
            "system": "http://fhir.de/sid/gkv/kvid-10",
            "value": "K220645122",
            "type": {
              "coding": [
                {
                  "code": "KVZ10",
                  "system": "http://fhir.de/CodeSystem/identifier-type-de-basis"
                }
              ]
            }
          }
        ],
        "address": [
          {
            "line": [
              "Berliner Straße 1"
            ],
            "_line": [
              {
                "extension": [
                  {
                    "valueString": "1",
                    "url": "http://hl7.org/fhir/StructureDefinition/iso21090-ADXP-houseNumber"
                  },
                  {
                    "valueString": "Berliner Straße",
                    "url": "http://hl7.org/fhir/StructureDefinition/iso21090-ADXP-streetName"
                  }
                ]
              }
            ],
            "country": "D",
            "postalCode": "25813",
            "city": "Husum",
            "type": "both"
          }
        ],
        "name": [
          {
            "given": [
              "Sahra"
            ],
            "family": "Schuhmann",
            "_family": {
              "extension": [
                {
                  "valueString": "Schuhmann",
                  "url": "http://hl7.org/fhir/StructureDefinition/humanname-own-name"
                }
              ]
            },
            "use": "official"
          }
        ],
        "birthDate": "1970-12-24"
      },
      "fullUrl": "http://pvs.praxis.local/fhir/Patient/30635f5d-c233-4500-94e8-6414940236aa"
    },
    {
      "resource": {
        "resourceType": "Practitioner",
        "id": "0c4e1a54-8a42-4d3d-a12c-0bbf2db48570",
        "meta": {
          "profile": [
            "https://fhir.kbv.de/StructureDefinition/KBV_PR_FOR_Practitioner|1.2"
          ]
        },
        "identifier": [
          {
            "system": "https://fhir.kbv.de/NamingSystem/KBV_NS_Base_ANR",
            "value": "582369858",
            "type": {
              "coding": [
                {
                  "code": "LANR",
                  "system": "http://terminology.hl7.org/CodeSystem/v2-0203"
                }
              ]
            }
          }
        ],
        "name": [
          {
            "given": [
              "Emilia"
            ],
            "family": "Becker",
            "_family": {
              "extension": [
                {
                  "valueString": "Becker",
                  "url": "http://hl7.org/fhir/StructureDefinition/humanname-own-name"
                }
              ]
            },
            "use": "official"
          }
        ],
        "qualification": [
          {
            "code": {
              "coding": [
                {
                  "code": "00",
                  "system": "https://fhir.kbv.de/CodeSystem/KBV_CS_FOR_Qualification_Type"
                }
              ]
            }
          },
          {
            "code": {
              "text": "Fachärztin für Psychiatrie und Psychotherapie",
              "coding": [
                {
                  "code": "Berufsbezeichnung",
                  "system": "https://fhir.kbv.de/CodeSystem/KBV_CS_FOR_Berufsbezeichnung"
                }
              ]
            }
          }
        ]
      },
      "fullUrl": "http://pvs.praxis.local/fhir/Practitioner/0c4e1a54-8a42-4d3d-a12c-0bbf2db48570"
    },
    {
      "resource": {
        "resourceType": "Organization",
        "id": "4ad4ae52-bd62-4cbd-bae9-7f7d6ece3fd2",
        "meta": {
          "profile": [
            "https://fhir.kbv.de/StructureDefinition/KBV_PR_FOR_Organization|1.2"
          ]
        },
        "identifier": [
          {
            "system": "https://fhir.kbv.de/NamingSystem/KBV_NS_Base_BSNR",
            "value": "723333300",
            "type": {
              "coding": [
                {
                  "code": "BSNR",
                  "system": "http://terminology.hl7.org/CodeSystem/v2-0203"
                }
              ]
            }
          }
        ],
        "address": [
          {
            "line": [
              "Herbert-Lewin-Platz 2"
            ],
            "_line": [
              {
                "extension": [
                  {
                    "valueString": "2",
                    "url": "http://hl7.org/fhir/StructureDefinition/iso21090-ADXP-houseNumber"
                  },
                  {
                    "valueString": "Herbert-Lewin-Platz",
                    "url": "http://hl7.org/fhir/StructureDefinition/iso21090-ADXP-streetName"
                  }
                ]
              }
            ],
            "country": "D",
            "postalCode": "10623",
            "city": "Berlin",
            "type": "both"
          }
        ],
        "telecom": [
          {
            "system": "phone",
            "value": "030369258147"
          }
        ],
        "name": "Praxis für Psychiatrie und Psychotherapie"
      },
      "fullUrl": "http://pvs.praxis.local/fhir/Organization/4ad4ae52-bd62-4cbd-bae9-7f7d6ece3fd2"
    },
    {
      "resource": {
        "resourceType": "Coverage",
        "id": "e51239e1-ba74-48e0-97fb-9754d2b05c60",
        "meta": {
          "profile": [
            "https://fhir.kbv.de/StructureDefinition/KBV_PR_FOR_Coverage|1.2"
          ]
        },
        "payor": [
          {
            "identifier": {
              "system": "http://fhir.de/sid/arge-ik/iknr",
              "value": "108018347"
            },
            "display": "AOK Baden-Württember/BVG"
          }
        ],
        "extension": [
          {
            "valueCoding": {
              "code": "06",
              "system": "https://fhir.kbv.de/CodeSystem/KBV_CS_SFHIR_KBV_PERSONENGRUPPE"
            },
            "url": "http://fhir.de/StructureDefinition/gkv/besondere-personengruppe"
          },
          {
            "valueCoding": {
              "code": "00",
              "system": "https://fhir.kbv.de/CodeSystem/KBV_CS_SFHIR_KBV_DMP"
            },
            "url": "http://fhir.de/StructureDefinition/gkv/dmp-kennzeichen"
          },
          {
            "valueCoding": {
              "code": "01",
              "system": "https://fhir.kbv.de/CodeSystem/KBV_CS_SFHIR_ITA_WOP"
            },
            "url": "http://fhir.de/StructureDefinition/gkv/wop"
          },
          {
            "valueCoding": {
              "code": "1",
              "system": "https://fhir.kbv.de/CodeSystem/KBV_CS_SFHIR_KBV_VERSICHERTENSTATUS"
            },
            "url": "http://fhir.de/StructureDefinition/gkv/versichertenart"
          }
        ],
        "beneficiary": {
          "reference": "Patient/30635f5d-c233-4500-94e8-6414940236aa"
        },
        "type": {
          "coding": [
            {
              "code": "GKV",
              "system": "http://fhir.de/CodeSystem/versicherungsart-de-basis"
            }
          ]
        },
        "status": "active"
      },
      "fullUrl": "http://pvs.praxis.local/fhir/Coverage/e51239e1-ba74-48e0-97fb-9754d2b05c60"
    }
  ],
  "type": "document",
  "timestamp": "2025-05-20T08:30:00Z"
}
