{
  "resourceType": "Bundle",
  "id": "Mapping-Bundle",
  "entry": [
    {
      "resource": {
        "resourceType": "MedicationRequest",
        "id": "KBV-TRP-MedicationRequest",
        "meta": {
          "profile": [
            "https://fhir.kbv.de/StructureDefinition/KBV_PR_ERP_Prescription|1.4"
          ]
        },
        "dispenseRequest": {
          "expectedSupplyDuration": {
            "value": 3,
            "unit": "Woche(n)"
          },
          "quantity": {
            "value": 1,
            "unit": "Packung"
          }
        },
        "substitution": {
          "allowedBoolean": true
        },
        "dosageInstruction": [
          {
            "timing": {
              "repeat": {
                "when": [
                  "EVE"
                ],
                "period": 1,
                "periodUnit": "d",
                "frequency": 1
              }
            },
            "doseAndRate": [
              {
                "doseQuantity": {
                  "value": 1,
                  "code": "1",
                  "system": "https://fhir.kbv.de/CodeSystem/KBV_CS_SFHIR_BMP_DOSIEREINHEIT",
                  "unit": "Stück"
                }
              }
            ],
            "extension": [
              {
                "valueCoding": {
                  "code": "DAILY_FOUR_SCHEME",
                  "system": "https://fhir.kbv.de/CodeSystem/KBV_CS_ERP_Dosage_Category"
                },
                "url": "https://fhir.kbv.de/StructureDefinition/KBV_EX_ERP_DosageCategory"
              }
            ]
          }
        ],
        "insurance": [
          {
            "reference": "e51239e1-ba74-48e0-97fb-9754d2b05c60"
          }
        ],
        "extension": [
          {
            "valueCoding": {
              "code": "1",
              "system": "https://fhir.kbv.de/CodeSystem/KBV_CS_FOR_StatusCoPayment"
            },
            "url": "https://fhir.kbv.de/StructureDefinition/KBV_EX_FOR_StatusCoPayment"
          },
          {
            "valueBoolean": false,
            "url": "https://fhir.kbv.de/StructureDefinition/KBV_EX_ERP_EmergencyServicesFee"
          },
          {
            "valueBoolean": true,
            "url": "https://fhir.kbv.de/StructureDefinition/KBV_EX_FOR_SER"
          },
          {
            "extension": [
              {
                "valueBoolean": false,
                "url": "Kennzeichen"
              }
            ],
            "url": "https://fhir.kbv.de/StructureDefinition/KBV_EX_ERP_Multiple_Prescription"
          },
          {
            "extension": [
              {
                "valueBoolean": true,
                "url": "Off-Label"
              },
              {
                "valueBoolean": false,
                "url": "GebaerfaehigeFrau"
              },
              {
                "valueBoolean": true,
                "url": "EinhaltungSicherheitsmassnahmen"
              },
              {
                "valueBoolean": true,
                "url": "AushaendigungInformationsmaterialien"
              },
              {
                "valueBoolean": true,
                "url": "ErklaerungSachkenntnis"
              }
            ],
            "url": "https://fhir.kbv.de/StructureDefinition/KBV_EX_ERP_Teratogenic"
          },
          {
            "valueBoolean": true,
            "url": "https://fhir.kbv.de/StructureDefinition/KBV_EX_ERP_DosageFlag"
          }
        ],
        "intent": "order",
        "subject": {
          "reference": "30635f5d-c233-4500-94e8-6414940236aa"
        },
        "authoredOn": "2025-05-20",
        "requester": {
          "reference": "0c4e1a54-8a42-4d3d-a12c-0bbf2db48570"
        },
        "medicationReference": {
          "reference": "Medication/KBV-TRP-Medication"
        },
        "status": "active"
      },
      "fullUrl": "https://erp-t-prescription-test.de/MedicationRequest/KBV-TRP-MedicationRequest"
    },
    {
      "resource": {
        "resourceType": "Medication",
        "id": "KBV-TRP-Medication",
        "meta": {
          "profile": [
            "https://fhir.kbv.de/StructureDefinition/KBV_PR_ERP_Medication_PZN|1.4"
          ]
        },
        "ingredient": [
          {
            "itemCodeableConcept": {
              "text": "Pomalidomid"
            },
            "strength": {
              "denominator": {
                "value": 1,
                "unit": "Stück"
              },
              "numerator": {
                "value": 1,
                "unit": "mg"
              }
            }
          }
        ],
        "amount": {
          "denominator": {
            "value": 1
          },
          "numerator": {
            "extension": [
              {
                "valueString": "21",
                "url": "https://fhir.kbv.de/StructureDefinition/KBV_EX_ERP_Medication_PackagingSize"
              }
            ],
            "unit": "Stück"
          }
        },
        "extension": [
          {
            "valueCodeableConcept": {
              "coding": [
                {
                  "version": "http://snomed.info/sct/11000274103/version/20240515",
                  "code": "763158003",
                  "system": "http://snomed.info/sct",
                  "display": "Medicinal product (product)"
                }
              ]
            },
            "url": "https://fhir.kbv.de/StructureDefinition/KBV_EX_Base_Medication_Type"
          },
          {
            "valueCoding": {
              "code": "02",
              "system": "https://fhir.kbv.de/CodeSystem/KBV_CS_ERP_Medication_Category"
            },
            "url": "https://fhir.kbv.de/StructureDefinition/KBV_EX_ERP_Medication_Category"
          },
          {
            "valueBoolean": false,
            "url": "https://fhir.kbv.de/StructureDefinition/KBV_EX_ERP_Medication_Vaccine"
          },
          {
            "valueCode": "N1",
            "url": "http://fhir.de/StructureDefinition/normgroesse"
          }
        ],
        "code": {
          "text": "Pomalidomid Accord 1 mg 21 x 1 Hartkapseln",
          "coding": [
            {
              "code": "19201712",
              "system": "http://fhir.de/CodeSystem/ifa/pzn"
            }
          ]
        },
        "form": {
          "coding": [
            {
              "code": "HKP",
              "system": "https://fhir.kbv.de/CodeSystem/KBV_CS_SFHIR_KBV_DARREICHUNGSFORM"
            }
          ]
        }
      },
      "fullUrl": "https://erp-t-prescription-test.de/Medication/KBV-TRP-Medication"
    },
    {
      "resource": {
        "resourceType": "MedicationDispense",
        "id": "GEM-MedicationDispense",
        "meta": {
          "profile": [
            "https://gematik.de/fhir/erp/StructureDefinition/GEM_ERP_PR_MedicationDispense|1.5"
          ]
        },
        "identifier": [
          {
            "system": "https://gematik.de/fhir/erp/NamingSystem/GEM_ERP_NS_PrescriptionId",
            "value": "160.100.000.000.001.39"
          }
        ],
        "subject": {
          "identifier": {
            "system": "http://fhir.de/sid/gkv/kvid-10",
            "value": "X123456789"
          }
        },
        "performer": [
          {
            "actor": {
              "identifier": {
                "system": "https://gematik.de/fhir/sid/telematik-id",
                "value": "3-SMC-B-Testkarte-883110000095957"
              }
            }
          }
        ],
        "status": "completed",
        "whenHandedOver": "2026-04-01",
        "medicationReference": {
          "reference": "Medication/PomalidomidMedication"
        }
      },
      "fullUrl": "https://erp-t-prescription-test.de/MedicationDispense/GEM-MedicationDispense"
    },
    {
      "resource": {
        "resourceType": "Medication",
        "id": "PomalidomidMedication",
        "meta": {
          "profile": [
            "https://gematik.de/fhir/erp/StructureDefinition/GEM_ERP_PR_Medication|1.5"
          ]
        },
        "extension": [
          {
            "url": "https://gematik.de/fhir/epa-medication/StructureDefinition/drug-category-extension",
            "valueCoding": {
              "code": "02",
              "system": "https://gematik.de/fhir/epa-medication/CodeSystem/epa-drug-category-cs"
            }
          },
          {
            "url": "https://gematik.de/fhir/epa-medication/StructureDefinition/medication-id-vaccine-extension",
            "valueBoolean": false
          },
          {
            "url": "http://fhir.de/StructureDefinition/normgroesse",
            "valueCode": "N1"
          }
        ],
        "batch": {
          "lotNumber": "1234567890"
        },
        "code": {
          "coding": [
            {
              "system": "http://fhir.de/CodeSystem/ifa/pzn",
              "code": "19201712"
            }
          ],
          "text": "Pomalidomid Accord 1 mg 21 x 1 Hartkapseln"
        },
        "form": {
          "coding": [
            {
              "system": "https://fhir.kbv.de/CodeSystem/KBV_CS_SFHIR_KBV_DARREICHUNGSFORM",
              "code": "HKP"
            }
          ]
        },
        "amount": {
          "numerator": {
            "extension": [
              {
                "url": "https://gematik.de/fhir/epa-medication/StructureDefinition/medication-total-quantity-formulation-extension",
                "valueString": "21"
              }
            ],
            "unit": "Stück"
          },
          "denominator": {
            "value": 1
          }
        }
      },
      "fullUrl": "https://erp-t-prescription-test.de/Medication/PomalidomidMedication"
    },
    {
      "resource": {
        "resourceType": "Task",
        "id": "TaskInClosedState",
        "meta": {
          "profile": [
            "https://gematik.de/fhir/erp/StructureDefinition/GEM_ERP_PR_Task|1.5"
          ]
        },
        "extension": [
          {
            "url": "https://gematik.de/fhir/erp/StructureDefinition/GEM_ERP_EX_PrescriptionType",
            "valueCoding": {
              "code": "166",
              "system": "https://gematik.de/fhir/erp/CodeSystem/GEM_ERP_CS_FlowType",
              "display": "Flowtype für Arzneimittel nach § 3a AMVV"
            }
          },
          {
            "url": "https://gematik.de/fhir/erp/StructureDefinition/GEM_ERP_EX_AcceptDate",
            "valueDate": "2026-04-01"
          },
          {
            "url": "https://gematik.de/fhir/erp/StructureDefinition/GEM_ERP_EX_ExpiryDate",
            "valueDate": "2026-04-01"
          }
        ],
        "identifier": [
          {
            "system": "https://gematik.de/fhir/erp/NamingSystem/GEM_ERP_NS_PrescriptionId",
            "value": "160.000.033.491.280.78"
          },
          {
            "system": "https://gematik.de/fhir/erp/NamingSystem/GEM_ERP_NS_AccessCode",
            "value": "777bea0e13cc9c42ceec14aec3ddee2263325dc2c6c699db115f58fe423607ea"
          }
        ],
        "performerType": [
          {
            "coding": [
              {
                "code": "urn:oid:1.2.276.0.76.4.54",
                "system": "https://gematik.de/fhir/erp/CodeSystem/GEM_ERP_CS_OrganizationType",
                "display": "Öffentliche Apotheke"
              }
            ]
          }
        ],
        "for": {
          "identifier": {
            "system": "http://fhir.de/sid/gkv/kvid-10",
            "value": "X123456789"
          }
        },
        "input": [
          {
            "type": {
              "coding": [
                {
                  "code": "1",
                  "system": "https://gematik.de/fhir/erp/CodeSystem/GEM_ERP_CS_DocumentType",
                  "display": "Health Care Provider Prescription"
                }
              ]
            },
            "valueReference": {
              "reference": "281a985c-f25b-4aae-91a6-41ad744080b0"
            }
          },
          {
            "type": {
              "coding": [
                {
                  "code": "2",
                  "system": "https://gematik.de/fhir/erp/CodeSystem/GEM_ERP_CS_DocumentType",
                  "display": "Patient Confirmation"
                }
              ]
            },
            "valueReference": {
              "reference": "f8c2298f-7c00-4a68-af29-8a2862d55d43"
            }
          }
        ],
        "output": [
          {
            "type": {
              "coding": [
                {
                  "code": "3",
                  "system": "https://gematik.de/fhir/erp/CodeSystem/GEM_ERP_CS_DocumentType",
                  "display": "Receipt"
                }
              ]
            },
            "valueReference": {
              "reference": "dffbfd6a-5712-4798-bdc8-07201eb77ab8"
            }
          }
        ],
        "intent": "order",
        "status": "completed",
        "authoredOn": "2026-04-01T15:29:00+00:00",
        "lastModified": "2026-04-01T16:44:00.434+00:00"
      },
      "fullUrl": "https://erp-t-prescription-test.de/Task/TaskInClosedState"
    },
    {
      "resource": {
        "resourceType": "Bundle",
        "id": "VZD-SearchSet-Bundle",
        "meta": {
          "lastUpdated": "2025-06-19T08:42:40.732+02:00"
        },
        "entry": [
          {
            "search": {
              "mode": "match"
            },
            "fullUrl": "https://fhir-directory-ref.vzd.ti-dienste.de/search/HealthcareService/a4f1b52e-c5de-47eb-874c-990c2b39bb77",
            "resource": {
              "resourceType": "HealthcareService",
              "id": "a4f1b52e-c5de-47eb-874c-990c2b39bb77",
              "meta": {
                "tag": [
                  {
                    "system": "https://gematik.de/fhir/directory/CodeSystem/Origin",
                    "code": "owner"
                  }
                ],
                "profile": [
                  "http://hl7.org/fhir/StructureDefinition/HealthcareService",
                  "https://gematik.de/fhir/directory/StructureDefinition/HealthcareServiceDirectory"
                ],
                "versionId": "2",
                "lastUpdated": "2024-03-27T17:49:37.898+01:00"
              },
              "identifier": [
                {
                  "system": "http://hl7.org/fhir/sid/us-npi",
                  "value": "1b9b1767-5496-4c20-bfc1-32ad6d96adbc"
                }
              ],
              "location": [
                {
                  "reference": "Location/9514f96e-897d-492d-950f-aea11d6f2bb4"
                }
              ],
              "endpoint": [
                {
                  "reference": "Endpoint/11d91987-d31e-468f-962e-845bb0c743c3"
                }
              ],
              "telecom": [
                {
                  "system": "phone",
                  "use": "work",
                  "value": "1234"
                }
              ],
              "providedBy": {
                "reference": "Organization/4f5a9754-2a9d-486d-9eec-a5c6b5f95016"
              }
            }
          },
          {
            "search": {
              "mode": "include"
            },
            "fullUrl": "https://fhir-directory-ref.vzd.ti-dienste.de/search/Organization/4f5a9754-2a9d-486d-9eec-a5c6b5f95016",
            "resource": {
              "resourceType": "Organization",
              "id": "4f5a9754-2a9d-486d-9eec-a5c6b5f95016",
              "meta": {
                "tag": [
                  {
                    "system": "https://gematik.de/fhir/directory/CodeSystem/Origin",
                    "code": "owner"
                  }
                ],
                "profile": [
                  "http://hl7.org/fhir/StructureDefinition/Organization",
                  "https://gematik.de/fhir/directory/StructureDefinition/OrganizationDirectory"
                ],
                "versionId": "1",
                "lastUpdated": "2023-03-23T14:14:28.492+01:00"
              },
              "identifier": [
                {
                  "system": "http://hl7.org/fhir/sid/us-npi",
                  "value": "44bb2f53-cdd7-4098-9d52-a6c5ac0ddc8d"
                },
                {
                  "type": {
                    "coding": [
                      {
                        "code": "PRN",
                        "system": "http://terminology.hl7.org/CodeSystem/v2-0203"
                      }
                    ]
                  },
                  "system": "https://gematik.de/fhir/sid/telematik-id",
                  "value": "3-Test-APO000053"
                }
              ],
              "type": [
                {
                  "coding": [
                    {
                      "code": "1.2.276.0.76.4.54",
                      "system": "https://gematik.de/fhir/directory/CodeSystem/OrganizationProfessionOID",
                      "display": "Öffentliche Apotheke"
                    }
                  ]
                }
              ],
              "alias": [
                "Organisation 3-Test-APO000053"
              ],
              "active": true,
              "name": "Organisation 3-Test-APO000053"
            }
          },
          {
            "search": {
              "mode": "include"
            },
            "fullUrl": "https://fhir-directory-ref.vzd.ti-dienste.de/search/Location/9514f96e-897d-492d-950f-aea11d6f2bb4",
            "resource": {
              "resourceType": "Location",
              "id": "9514f96e-897d-492d-950f-aea11d6f2bb4",
              "meta": {
                "tag": [
                  {
                    "system": "https://gematik.de/fhir/directory/CodeSystem/Origin",
                    "code": "owner"
                  }
                ],
                "profile": [
                  "http://hl7.org/fhir/StructureDefinition/Location",
                  "https://gematik.de/fhir/directory/StructureDefinition/LocationDirectory"
                ],
                "versionId": "1",
                "lastUpdated": "2023-03-23T14:14:28.492+01:00"
              },
              "identifier": [
                {
                  "system": "http://hl7.org/fhir/sid/us-npi",
                  "value": "995d8a48-f7fc-4ffb-a676-feb18c7c052c"
                }
              ],
              "address": {
                "line": [
                  "Schwarzwaldstr. 18"
                ],
                "use": "work",
                "type": "postal",
                "text": "Schwarzwaldstr. 18&#13;&#10;63762&#13;&#10;Großostheim&#13;&#10;Bayern&#13;&#10;DE",
                "city": "Großostheim",
                "state": "Bayern",
                "postalCode": "63762",
                "country": "DE"
              },
              "name": "Location of Organisation 1-2arvtst-ap000053"
            }
          }
        ],
        "type": "searchset",
        "total": 3
      },
      "fullUrl": "https://erp-t-prescription-test.de/Bundle/VZD-SearchSet-Bundle"
    }
  ],
  "type": "collection"
}
