{
  "resourceType": "Bundle",
  "type": "collection",
  "entry": [
    {
      "fullUrl": "https://erp-t-prescription-test.de/MedicationRequest/7d871b93-e18c-4865-bad0-6b55196be46b",
      "resource": {
        "resourceType": "MedicationRequest",
        "id": "7d871b93-e18c-4865-bad0-6b55196be46b",
        "meta": {
          "versionId": "1",
          "profile": [
            "https://fhir.kbv.de/StructureDefinition/KBV_PR_ERP_Prescription|1.4"
          ]
        },
        "extension": [
          {
            "valueCoding": {
              "system": "https://fhir.kbv.de/CodeSystem/KBV_CS_FOR_StatusCoPayment",
              "code": "1"
            }
          },
          {
            "valueBoolean": "false"
          },
          {
            "valueBoolean": "true"
          },
          {
            "extension": {
              "valueBoolean": "false"
            }
          },
          {
            "extension": [
              {
                "valueBoolean": "true"
              },
              {
                "valueBoolean": "false"
              },
              {
                "valueBoolean": "true"
              },
              {
                "valueBoolean": "true"
              },
              {
                "valueBoolean": "true"
              }
            ]
          },
          {
            "valueBoolean": "true"
          },
          {
            "valueMarkdown": "0-0-1-0 St端ck"
          },
          {
            "extension": [
              {
                "valueString": "1.0.0"
              },
              {
                "valueCode": "de-DE"
              }
            ]
          }
        ],
        "status": "active",
        "intent": "order",
        "medicationReference": {
          "reference": "Medication/a3ca01a4-92c1-422a-87d9-ef046e94527f"
        },
        "subject": {
          "reference": "Patient/30635f5d-c233-4500-94e8-6414940236aa"
        },
        "authoredOn": "2025-05-20",
        "requester": {
          "reference": "Practitioner/0c4e1a54-8a42-4d3d-a12c-0bbf2db48570"
        },
        "insurance": {
          "reference": "Coverage/e51239e1-ba74-48e0-97fb-9754d2b05c60"
        },
        "dosageInstruction": {
          "timing": {
            "repeat": {
              "frequency": "1",
              "period": "1",
              "periodUnit": "d",
              "when": "EVE"
            }
          },
          "doseAndRate": {
            "doseQuantity": {
              "value": "1",
              "unit": "St端ck",
              "system": "https://fhir.kbv.de/CodeSystem/KBV_CS_SFHIR_BMP_DOSIEREINHEIT",
              "code": "1"
            }
          }
        },
        "dispenseRequest": {
          "quantity": {
            "value": "1",
            "unit": "Packung"
          },
          "expectedSupplyDuration": {
            "value": "3",
            "unit": "Woche(n)"
          }
        },
        "substitution": {
          "allowedBoolean": "true"
        }
      }
    },
    {
      "fullUrl": "https://erp-t-prescription-test.de/Medication/a3ca01a4-92c1-422a-87d9-ef046e94527f",
      "resource": {
        "resourceType": "Medication",
        "id": "a3ca01a4-92c1-422a-87d9-ef046e94527f",
        "meta": {
          "versionId": "1",
          "profile": [
            "https://fhir.kbv.de/StructureDefinition/KBV_PR_ERP_Medication_PZN|1.4"
          ]
        },
        "extension": [
          {
            "valueCodeableConcept": {
              "coding": {
                "system": "http://snomed.info/sct",
                "version": "http://snomed.info/sct/11000274103/version/20240515",
                "code": "763158003",
                "display": "Medicinal product (product)"
              }
            }
          },
          {
            "valueCoding": {
              "system": "https://fhir.kbv.de/CodeSystem/KBV_CS_ERP_Medication_Category",
              "code": "02"
            }
          },
          {
            "valueBoolean": "false"
          },
          {
            "valueCode": "N1"
          }
        ],
        "code": {
          "coding": {
            "system": "http://fhir.de/CodeSystem/ifa/pzn",
            "code": "19201712"
          },
          "text": "Pomalidomid Accord 1 mg 21 x 1 Hartkapseln"
        },
        "form": {
          "coding": {
            "system": "https://fhir.kbv.de/CodeSystem/KBV_CS_SFHIR_KBV_DARREICHUNGSFORM",
            "code": "HKP"
          }
        },
        "amount": {
          "numerator": {
            "extension": {
              "valueString": "21"
            },
            "unit": "St端ck"
          },
          "denominator": {
            "value": "1"
          }
        },
        "ingredient": {
          "itemCodeableConcept": {
            "text": "Pomalidomid"
          },
          "strength": {
            "numerator": {
              "value": "1",
              "unit": "mg"
            },
            "denominator": {
              "value": "1",
              "unit": "St端ck"
            }
          }
        }
      }
    },
    {
      "fullUrl": "https://erp-t-prescription-test.de/MedicationDispense/a7e1d25f-0b0a-40f7-b529-afda48e51b46",
      "resource": {
        "resourceType": "MedicationDispense",
        "id": "a7e1d25f-0b0a-40f7-b529-afda48e51b46",
        "meta": {
          "profile": [
            "https://gematik.de/fhir/erp/StructureDefinition/GEM_ERP_PR_MedicationDispense|1.5"
          ]
        },
        "identifier": {
          "system": "https://gematik.de/fhir/erp/NamingSystem/GEM_ERP_NS_PrescriptionId",
          "value": "160.100.000.000.001.39"
        },
        "status": "completed",
        "medicationReference": {
          "reference": "urn:uuid:8e2e5e65-4c5d-49f2-8efc-c30e40838273"
        },
        "subject": {
          "identifier": {
            "system": "http://fhir.de/sid/gkv/kvid-10",
            "value": "X234567890"
          }
        },
        "performer": {
          "actor": {
            "identifier": {
              "system": "https://gematik.de/fhir/sid/telematik-id",
              "value": "3-07.2.1234560000.10.789"
            }
          }
        },
        "quantity": {
          "value": "1",
          "unit": "Packung"
        },
        "whenHandedOver": "2025-10-30",
        "substitution": {
          "wasSubstituted": "true"
        }
      }
    },
    {
      "fullUrl": "https://erp-t-prescription-test.de/Medication/8e2e5e65-4c5d-49f2-8efc-c30e40838273",
      "resource": {
        "resourceType": "Medication",
        "id": "8e2e5e65-4c5d-49f2-8efc-c30e40838273",
        "meta": {
          "profile": [
            "https://gematik.de/fhir/erp/StructureDefinition/GEM_ERP_PR_Medication|1.5"
          ]
        },
        "code": {
          "coding": {
            "system": "http://fhir.de/CodeSystem/ifa/pzn",
            "code": "19201712"
          },
          "text": "Pomalidomid Accord 1 mg 21 x 1 Hartkapseln"
        },
        "form": {
          "coding": {
            "system": "https://fhir.kbv.de/CodeSystem/KBV_CS_SFHIR_KBV_DARREICHUNGSFORM",
            "code": "TAB",
            "display": "Tabletten"
          }
        },
        "amount": {
          "numerator": {
            "extension": {
              "valueString": "21"
            },
            "unit": "St"
          },
          "denominator": {
            "value": "1"
          }
        },
        "ingredient": {
          "itemCodeableConcept": {
            "text": "Pomalidomid"
          },
          "strength": {
            "numerator": {
              "value": "1",
              "unit": "mg"
            },
            "denominator": {
              "value": "1",
              "unit": "Tbl."
            }
          }
        },
        "batch": {
          "lotNumber": "A123456789-1"
        }
      }
    },
    {
      "fullUrl": "https://erp-t-prescription-test.de/Task/TaskInClosedState",
      "resource": {
        "resourceType": "Task",
        "id": "TaskInClosedState",
        "meta": {
          "profile": [
            "https://gematik.de/fhir/erp/StructureDefinition/GEM_ERP_PR_Task|1.6"
          ]
        }
      }
    },
    {
      "fullUrl": "https://erp-t-prescription-test.de/Bundle/VZD-SearchSet-Bundle",
      "resource": {
        "resourceType": "Bundle",
        "id": "VZD-SearchSet-Bundle",
        "meta": {}
      }
    }
  ]
}